Folder: XRD/Calibration/XRD_TRIMDAC_CAL

Note: Calibration/XRD_TRIMDAC_CAL/build.txt
gcc -c main.c 
#gcc -c testfit.c -I/opt/epics/base-3.14.12.3/src/libCom/tsDefs -I/opt/epics/base-3.14.12.3/src/libCom/osi -I/opt/epics/base-3.14.12.3/src/libCom/misc -I/opt/epics/base-3.14.12.3/include/os/RTEMS -I/opt/epics/base-3.14.12.3/src/ca -I/opt/epics/extensions/src/ezca -I/opt/epics/base-3.14.12.3/include
#gcc -o trim main.o libfit.so /usr/local/grace-5.1.17/lib/libgrace_np.a
gcc -L/opt/epics/extensions/lib/linux-x86 -o trim main.o libfit.so /usr/local/grace/lib/libgrace_np.a
gcc -o trim main.o libfit.so /usr/local/grace/lib/libgrace_np.a

Note: Calibration/XRD_TRIMDAC_CAL/build_static.txt
gcc -c main.c 
gcc -o trim -static main.o libfit.so /usr/local/grace/lib/libgrace_np.a

Note: Calibration/XRD_TRIMDAC_CAL/README.txt
Build Trims 8/22/13
J.farrington

**Verify that all commands shown reflect your environment

Install Grace:
-Download the latest version of grace (grace-5.1.23) onto /usr/local/
-Go into grace-5.1.23/ and 
--$ sudo ./configure
--$ sudo make
--$ sudo make install
-Make a symbolic link from /usr/local/grace/bin/xmgrace to usr/local/bin/xmgrace

Build Trims:

(Part1)
-Modify Makefile to reflect your environment
-install minpack-dev
--$ sudo apt-get install minpack-dev
-$ sudo make
-The ezcaSetMonitor function has a new definition which requires an extra value, count. I modified testfit.c to add this value and set it up to 0.
-It compiles with a bunch of warnings,ignore them. Creates tescfit.o and libfit.so
-Define some paths to ezca library so that the compiler can link to it:
--Method1:Add path to the compiler library path definition
---Go to /etc/ld.so.conf.d
---Add a file (i.e newlib.conf) with the path to libezca.so (/opt/epics/extensions/lib/linux-x86)
--Method2:Use symbolic link on default compiler library 
---Go to /usr/local/lib
---$ ln -s /opt/epics/extensions/lib/linux-x86/libezca.so libezca.so

(Part2)
-Go to /usr/lib/
--$ sudo ln -s /opt/epics_dev/IOC/STRIP_DET/SYDOR_XRD_uC5282/SydorXRD_Start/trims/libfit.so libfit.so
--$ sudo ln -s /opt/epics/extensions/lib/linux-x86/libezca.so libezca.so
-
-Go to the trims directory
-Edit build.txt to reflect your environment
--$source build.txt
-Run Trims
$./trims
..Done!

File: dacs.dat
0  0 0 0 9
3  28 22 33 63
6  17 34 37 63
9  19 33 37 63
12  37 49 63 63
15  36 39 51 63
18  20 39 54 63
21  31 42 63 63
24  33 25 57 63
27  24 34 48 63
30  28 28 51 63
33  52 32 49 63
36  53 37 63 63
39  63 62 63 63
42  63 56 63 63
45  63 41 61 63
48  40 32 45 63
51  47 37 47 63
54  35 7 32 63
57  28 24 42 61
60  0 0 2 38
63  11 1 19 49
66  57 63 63 63
69  20 51 63 63
72  9 34 54 63
75  20 38 63 63
78  19 44 63 63
81  48 49 63 63
84  29 35 63 63
87  5 23 63 63
90  31 45 63 63
93  9 31 47 63
96  23 0 29 45
99  48 24 46 63
102  63 33 51 63
105  36 18 48 63
108  5 0 15 37
111  30 7 29 59
114  11 10 0 46
117  25 5 22 53
120  21 0 34 43
123  45 23 46 63
126  40 34 52 63
129  24 19 35 20
132  9 9 26 25
135  13 0 18 10
138  23 23 32 21
141  16 0 21 13
144  32 26 39 30
147  18 9 42 17
150  0 0 3 3
153  21 17 47 28
156  19 19 39 13
159  55 42 57 46
162  42 20 38 18
165  41 35 47 31
168  18 10 15 3
171  49 18 36 18
174  45 26 48 40
177  50 37 45 40
180  49 25 34 22
183  25 17 26 28
186  22 20 33 19
189  40 25 32 20
192  40 25 37 41
195  25 3 17 25
198  45 23 32 48
201  50 11 28 21
204  29 22 32 35
207  35 10 31 34
210  63 56 50 61
213  32 9 23 34
216  51 16 38 29
219  43 19 46 42
222  56 32 48 42
225  1 2 2 0
228  25 0 0 10
231  28 13 20 9
234  46 20 23 11
237  32 46 44 24
240  49 30 34 36
243  36 23 15 13
246  32 25 29 7
249  10 0 15 0
252  34 27 36 14
255  40 27 37 26
258  43 29 53 46
261  24 21 38 21
264  48 42 53 46
267  34 22 47 44
270  36 22 59 38
273  57 36 63 49
276  48 24 63 43
279  35 20 50 37
282  50 51 63 62
285  44 32 58 49
288  0 13 15 17
291  6 15 24 13
294  6 46 40 39
297  0 4 0 0
300  0 15 8 6
303  0 16 0 7
306  18 33 32 26
309  9 18 13 14
312  34 42 36 45
315  11 20 19 24
318  53 63 49 61
321  3 8 40 41
324  63 63 63 63
327  0 0 9 45
330  5 0 23 47
333  0 0 8 31
336  0 0 13 27
339  2 14 35 39
342  0 0 28 45
345  0 0 11 28
348  0 0 7 27
351  0 7 25 47
354  0 3 48 55
357  0 13 46 63
360  0 0 37 61
363  11 13 38 59
366  0 0 39 63
369  63 63 63 63
372  63 63 63 63
375  0 0 26 29
378  0 0 12 37
381  12 20 46 58
384  25 5 37 42
387  22 0 32 50
390  63 63 0 63
393  31 14 58 60
396  5 0 26 29
399  8 0 30 30
402  31 21 57 62
405  43 32 63 63
408  0 0 31 30
411  39 31 58 63
414  31 10 49 39
417  25 30 43 59
420  30 40 30 63
423  23 28 41 60
426  32 41 43 59
429  46 63 52 63
432  26 32 36 63
435  29 42 29 61
438  11 26 29 57
441  54 63 57 63
444  41 51 60 63
447  36 39 39 58
450  30 40 58 63
453  31 41 37 63
456  55 63 63 63
459  41 55 63 63
462  14 42 47 63
465  46 52 56 63
468  49 63 63 63
471  27 63 50 63
474  34 52 50 63
477  40 57 56 63
480  0 0 29 47
483  4 0 28 44
486  0 0 8 31
489  0 0 23 37
492  0 0 24 44
495  0 0 17 42
498  0 0 18 31
501  0 0 23 32
504  0 0 33 47
507  0 0 15 39
510  0 4 38 45
513  9 0 0 5
516  0 0 0 19
519  18 0 0 7
522  6 0 0 11
525  7 0 0 10
528  27 0 0 7
531  6 10 0 12
534  43 0 16 30
537  0 0 0 0
540  63 63 63 63
543  5 0 0 6
546  32 1 7 11
549  8 0 0 4
552  22 0 0 0
555  26 0 0 0
558  41 9 22 22
561  18 0 0 0
564  26 0 0 5
567  31 0 0 0
570  32 0 0 10
573  55 11 18 26
576  37 6 48 50
579  43 0 35 40
582  57 15 47 58
585  29 0 26 33
588  44 0 40 40
591  39 32 53 45
594  47 10 54 56
597  29 11 37 44
600  31 0 23 40
603  53 24 60 58
606  51 19 47 52
609  63 63 63 59
612  59 63 63 38
615  63 63 44 48
618  63 63 63 63
621  57 48 47 42
624  63 63 63 41
627  63 63 63 63
630  63 63 55 61
633  63 63 51 52
636  60 54 47 40
639  63 62 43 46

File: orig_dacs.dat
0  20 0 15 0
3  24 1 27 8
6  27 9 28 12
9  0 0 0 0
12  9 0 2 0
15  25 6 16 4
18  20 0 11 0
21  13 0 31 4
24  23 8 16 10
27  17 0 28 8
30  2 0 0 0
33  38 21 41 18
36  33 24 29 28
39  32 13 30 24
42  39 26 28 25
45  43 24 40 36
48  18 10 26 5
51  21 3 14 10
54  12 0 10 13
57  16 7 19 7
60  38 21 23 18
63  30 8 30 8
66  24 11 26 13
69  33 18 30 27
72  36 42 56 32
75  16 4 18 7
78  20 17 25 5
81  28 20 23 16
84  11 0 14 0
87  16 14 20 5
90  22 8 23 9
93  20 7 22 2
96  21 15 20 18
99  10 3 11 0
102  17 10 20 16
105  21 0 17 0
108  11 10 16 0
111  4 0 9 0
114  8 0 8 0
117  29 11 19 12
120  29 16 31 15
123  0 0 0 0
126  21 4 7 0
129  19 14 21 25
132  13 4 23 0
135  18 6 24 15
138  18 10 21 11
141  19 15 10 4
144  30 6 15 10
147  28 18 26 5
150  24 17 24 19
153  18 10 10 9
156  18 3 6 1
159  0 0 6 0
162  37 41 31 36
165  38 35 44 40
168  31 47 43 27
171  39 37 38 36
174  23 37 30 31
177  44 42 36 36
180  35 33 28 35
183  42 40 25 22
186  32 37 38 36
189  44 38 38 43
192  42 36 37 38
195  34 33 24 35
198  21 20 32 22
201  48 41 38 48
204  26 40 38 37
207  40 45 25 39
210  26 36 25 32
213  30 31 31 28
216  42 63 43 61
219  25 37 24 27
222  39 47 55 48
225  9 21 14 25
228  56 54 45 62
231  29 29 36 36
234  29 35 27 35
237  35 48 28 39
240  42 38 43 46
243  38 37 35 42
246  19 28 18 24
249  31 46 35 32
252  32 33 23 30
255  46 49 50 49
258  45 40 33 38
261  11 21 16 28
264  47 43 42 51
267  22 19 17 15
270  34 39 42 41
273  33 32 27 29
276  12 29 21 21
279  28 24 28 34
282  11 21 18 21
285  8 16 4 6
288  45 54 55 49
291  38 36 29 34
294  49 48 48 48
297  63 63 59 62
300  16 29 34 36
303  30 30 22 34
306  28 35 32 33
309  32 44 38 40
312  37 40 39 40
315  19 16 13 22
318  40 52 45 45
321  36 40 38 36
324  28 35 40 35
327  40 48 35 41
330  23 14 22 29
333  32 34 42 36
336  42 51 39 40
339  46 62 58 63
342  32 56 36 44
345  12 22 19 19
348  62 58 62 51
351  54 55 49 54
354  25 32 17 33
357  23 29 14 24
360  33 41 37 43
363  45 40 46 32
366  46 53 54 55
369  46 52 32 51
372  28 37 42 38
375  10 24 22 17
378  33 46 41 36
381  43 43 37 35
384  52 45 39 45
387  18 32 15 25
390  28 37 24 26
393  34 29 32 21
396  25 30 24 35
399  23 44 10 24
402  49 51 44 44
405  40 51 27 50
408  39 36 32 45
411  26 26 32 21
414  40 45 38 42
417  40 47 40 45
420  40 47 37 35
423  27 24 25 13
426  44 43 39 49
429  56 63 50 62
432  24 27 4 23
435  7 26 24 18
438  25 32 29 29
441  34 28 32 38
444  39 29 32 33
447  17 22 18 13
450  29 32 30 41
453  11 16 18 30
456  27 26 24 25
459  53 38 31 43
462  9 19 4 17
465  21 17 16 24
468  12 15 12 17
471  19 13 11 16
474  18 30 27 26
477  21 35 24 19
480  33 26 31 39
483  14 14 12 25
486  19 19 15 23
489  39 36 36 34
492  31 18 16 26
495  31 31 26 33
498  48 57 52 50
501  20 31 38 19
504  37 47 41 46
507  14 30 20 27
510  21 32 32 45
513  48 63 61 60
516  63 63 63 63
519  62 63 61 63
522  39 46 34 48
525  47 45 54 56
528  54 63 60 59
531  53 60 55 63
534  48 55 52 54
537  54 60 52 60
540  44 47 44 47
543  37 45 51 49
546  18 15 19 26
549  50 51 47 52
552  17 16 8 33
555  33 34 39 39
558  27 28 18 35
561  35 42 37 40
564  29 37 42 36
567  32 36 24 42
570  11 20 7 16
573  40 46 46 41
576  63 63 51 63
579  21 38 34 36
582  36 30 31 33
585  34 45 42 44
588  55 48 41 48
591  30 28 36 35
594  24 28 31 30
597  27 31 20 28
600  28 19 4 17
603  19 36 28 30
606  47 44 45 52
609  16 24 18 21
612  23 22 14 32
615  7 23 1 10
618  15 18 18 25
621  10 26 11 20
624  26 20 12 26
627  23 34 20 30
630  28 39 25 37
633  3 28 6 4
636  10 43 21 26
639  0 0 0 0

File: scan_fits.dat
0  0 1.44 60 0  0 1.44 60 0  0 1.44 60 0  0 1.44 60 0
8  0 1.44 60 0  0 1.44 60 0  0 1.44 60 0  0 1.44 60 0
16  0 1.44 60 0  0 1.44 60 0  0 1.44 60 0  0 1.44 60 0
24  0 1.44 60 0  0 1.44 60 0  0 1.44 60 0  0 1.44 60 0
32  250.116 1.25454 87.0724 -0.0212227  249.999 1.21561 92.0152 -0.165367  249.985 1.25605 85.5541 0.0230027  249.357 1.23502 98.7234 1.17177
40  249.755 1.26823 102.234 0.227815  249.841 1.25239 91.2024 0.37183  250.029 1.25511 91.6529 -0.0743149  250.288 1.25363 85.9535 -0.475324
48  249.373 1.24638 106.533 0.372076  250.272 1.24456 86.4972 -0.290623  249.487 1.24729 107.647 0.4404  250.093 1.23046 92.2457 -0.158141
56  249.967 1.2836 90.7324 0.338142  249.759 1.26303 91.2139 0.0166262  249.746 1.29478 91.457 -0.184112  249.923 1.27539 92.2032 0.221641
64  0 1.44 60 0  0 1.44 60 0  0 1.44 60 0  0 1.44 60 0
72  249.477 1.25455 104.555 0.11864  249.909 1.26053 92.8931 0.120076  249.785 1.28456 96.5937 0.269026  250.224 1.24236 81.8625 -0.239257
80  249.887 1.2296 90.7929 -0.144565  250.052 1.20683 97.01 -0.935283  250.362 1.23735 82.8423 -0.30264  250.452 1.20674 82.1393 -1.19684
88  249.822 1.25847 102.141 0.129193  249.924 1.24523 89.4078 0.270386  249.484 1.26589 108.184 0.811892  250.317 1.26299 88.4502 -0.6183
96  0 1.44 60 0  0 1.44 60 0  0 1.44 60 0  0 1.44 60 0
104  0 1.44 60 0  0 1.44 60 0  0 1.44 60 0  0 1.44 60 0
112  0 1.44 60 0  0 1.44 60 0  0 1.44 60 0  0 1.44 60 0
120  0 1.44 60 0  0 1.44 60 0  0 1.44 60 0  0 1.44 60 0
128  250.081 1.26916 88.3152 0.0820666  250.034 1.23621 84.9294 -0.131475  249.989 1.26945 89.9447 0.174145  249.569 1.25397 90.2275 0.523881
136  249.951 1.25909 89.3773 0.237823  249.856 1.2473 90.0806 0.00268384  250.239 1.2612 80.6109 -0.404441  250.347 1.24262 85.3039 -0.684575
144  250.077 1.29144 87.0705 -0.036782  249.827 1.26547 88.4702 0.102729  249.811 1.2799 92.484 -0.0221344  250.114 1.2672 80.9898 -0.315939
152  250.219 1.21395 99.9911 -0.0574764  249.244 1.20426 103.48 1.15553  250.231 1.22833 93.5651 0.248764  249.723 1.19114 82.888 0.869981
160  0 1.44 60 0  0 1.44 60 0  0 1.44 60 0  0 1.44 60 0
168  249.526 1.26708 113.082 1.08144  250.148 1.28732 83.1114 0.383105  249.842 1.28627 89.304 0.200227  250.006 1.25711 89.6025 -0.208784
176  249.599 1.26424 97.5916 0.422528  249.302 1.24303 100.882 1.4137  250.421 1.26547 82.0954 -0.196956  249.765 1.27277 95.6288 0.25199
184  0 1.44 60 0  0 1.44 60 0  0 1.44 60 0  0 1.44 60 0
192  250.106 1.26314 88.3144 0.199527  250.254 1.24639 86.1158 -0.18627  250.094 1.25564 96.1652 0.0885087  250.164 1.25693 86.6505 -0.194683
200  249.885 1.28633 85.6978 0.964149  250.033 1.29672 88.0995 -0.194278  250.128 1.28848 80.2288 0.44113  250.179 1.27057 87.2094 -0.689094
208  249.957 1.24716 92.3764 -0.225315  249.427 1.23426 106.909 0.940968  250.491 1.23536 78.2363 -0.465774  250.024 1.25151 90.9362 -0.0843126
216  249.707 1.28556 93.1637 0.492169  249.947 1.30924 89.8818 -0.1097  249.783 1.28871 90.1177 0.563888  249.794 1.3192 97.9738 0.0849388
224  0 1.44 60 0  0 1.44 60 0  0 1.44 60 0  0 1.44 60 0
232  0 1.44 60 0  0 1.44 60 0  0 1.44 60 0  0 1.44 60 0
240  0 1.44 60 0  0 1.44 60 0  0 1.44 60 0  0 1.44 60 0
248  0 1.44 60 0  0 1.44 60 0  0 1.44 60 0  0 1.44 60 0
256  250.301 1.24178 83.5386 0.106279  250.127 1.25766 83.1175 0.120759  249.48 1.25485 93.0038 0.278961  250.084 1.24632 84.6518 0.164325
264  249.953 1.33524 81.6869 0.0928196  250.007 1.31109 81.9921 0.253121  249.569 1.31588 89.6298 0.362135  250.35 1.32796 75.9394 -0.116203
272  250.382 1.24209 77.2098 0.0153172  249.757 1.22679 89.6552 -0.0452207  250.215 1.23404 95.0662 0.296831  250.108 1.22504 86.7917 -0.156545
280  249.735 1.27151 92.0042 0.0822107  249.763 1.24764 92.9122 0.300301  249.727 1.27307 90.4444 0.339251  249.689 1.25495 89.9419 0.317418
288  0 1.44 60 0  0 1.44 60 0  0 1.44 60 0  0 1.44 60 0
296  0 1.44 60 0  0 1.44 60 0  0 1.44 60 0  0 1.44 60 0
304  0 1.44 60 0  0 1.44 60 0  0 1.44 60 0  0 1.44 60 0
312  0 1.44 60 0  0 1.44 60 0  0 1.44 60 0  0 1.44 60 0
320  249.883 1.27667 83.1268 -0.258941  249.996 1.26955 83.3581 0.361213  249.33 1.27382 100.87 0.306961  249.979 1.25932 93.9228 -0.512519
328  250.276 1.2921 82.4376 -0.0827742  250.013 1.28951 89.5884 0.192155  250.125 1.28913 84.4681 0.047951  249.855 1.291 94.5878 0.494244
336  250.181 1.29248 81.5779 -0.177684  249.761 1.29794 91.5894 0.358864  250.111 1.29684 79.259 -0.606563  250.075 1.2815 85.1423 -0.265192
344  250.06 1.24842 88.6938 -0.287126  249.723 1.25371 101.193 0.450681  249.981 1.2599 98.9147 0.14222  250.147 1.23923 88.0169 -0.150654
352  250.223 1.3401 71.2069 -0.198024  249.912 1.33195 75.996 0.14846  250.208 1.3275 71.6383 -0.182317  250.43 1.33342 67.7912 0.0546623
360  250.525 1.24615 82.633 -0.44024  250.294 1.25645 87.9239 -0.281404  250.09 1.25197 83.9564 -0.266737  249.698 1.24773 95.473 0.934806
368  249.782 1.257 98.3127 0.384712  249.941 1.26086 96.3436 0.25161  250.017 1.27992 97.9176 -0.136489  250.088 1.26028 96.8421 -0.550724
376  250.029 1.30797 83.2309 -0.00816293  249.631 1.30201 90.2561 0.80505  250.181 1.29389 86.1829 0.0207192  250.126 1.29965 81.5163 0.0753796
384  249.784 1.2788 91.557 0.763254  249.807 1.26233 96.8266 0.345383  250.158 1.259 86.8794 -0.150093  250.18 1.26335 84.8055 -0.133431
392  249.676 1.29317 86.928 0.336243  249.89 1.28813 90.1079 -0.0203634  250.241 1.29384 76.131 0.142053  250.203 1.28726 82.7145 -0.240728
400  250.042 1.29134 80.4296 -0.16131  249.969 1.28006 91.5027 0.259275  249.857 1.28036 89.9928 0.279259  250.124 1.28701 84.3114 -0.369592
408  249.818 1.31359 85.8509 0.313402  250.063 1.30255 86.8283 -0.132185  250.164 1.29508 79.01 -0.130069  249.51 1.30582 102.233 0.17467
416  0 1.44 60 0  0 1.44 60 0  0 1.44 60 0  0 1.44 60 0
424  0 1.44 60 0  0 1.44 60 0  0 1.44 60 0  0 1.44 60 0
432  250.124 1.27051 82.7047 -0.0862793  250.378 1.2635 82.2181 -0.730786  250.304 1.26419 79.7436 -0.0125841  250.485 1.26481 79.7876 -0.71201
440  249.9 1.28614 88.0528 0.407858  250.018 1.25763 91.4846 0.0281669  249.716 1.27414 99.3065 0.306233  249.798 1.27528 90.9592 0.233017
448  0 1.44 60 0  0 1.44 60 0  0 1.44 60 0  0 1.44 60 0
456  0 1.44 60 0  0 1.44 60 0  0 1.44 60 0  0 1.44 60 0
464  250.239 1.2464 87.374 -0.193854  249.971 1.24137 92.0305 0.274372  249.736 1.24348 97.7794 0.205237  250.18 1.2444 90.3699 -0.462765
472  0 1.44 60 0  0 1.44 60 0  0 1.44 60 0  0 1.44 60 0
480  0 1.44 60 0  0 1.44 60 0  0 1.44 60 0  0 1.44 60 0
488  249.904 1.29109 86.082 -0.290183  250.04 1.29986 89.5957 -0.200007  249.957 1.29245 92.3096 -0.127343  249.935 1.2906 87.9579 0.446785
496  0 1.44 60 0  0 1.44 60 0  0 1.44 60 0  0 1.44 60 0
504  0 1.44 60 0  0 1.44 60 0  0 1.44 60 0  0 1.44 60 0
512  249.97 1.32205 84.0323 0.20542  249.847 1.3087 87.4449 0.768248  249.75 1.31307 84.9518 -0.086711  249.477 1.31186 95.5644 1.00019
520  250.033 1.30721 80.1449 0.0501757  249.955 1.2819 95.2974 -0.0211696  250.152 1.28881 80.5892 -0.0940777  249.798 1.29517 90.1712 0.117533
528  250.176 1.30391 82.7823 -0.162583  249.841 1.31039 88.3908 0.440718  250.171 1.30989 80.4127 -0.710711  250.124 1.29902 78.1751 -0.406491
536  250.425 1.30323 73.7026 -0.438114  249.951 1.30172 82.0753 0.45876  249.946 1.29288 84.8253 0.150777  249.959 1.28982 87.9449 -0.270147
544  249.345 1.22651 93.1117 0.616509  249.855 1.23056 85.2603 0.30044  249.715 1.22823 83.7215 -0.226625  250.253 1.23369 85.6707 -0.516664
552  250.281 1.28234 85.4602 -0.160249  249.812 1.27177 91.6674 0.174872  249.771 1.26784 91.0978 0.309324  249.941 1.3032 89.6792 0.115296
560  250.356 1.26546 85.6401 -0.291212  250.244 1.30003 82.2789 0.304701  249.998 1.27213 97.6091 0.0227644  250.177 1.28988 83.535 -0.277456
568  250.453 1.26306 88.7248 -0.13957  249.683 1.28583 105.597 0.100638  250.225 1.26244 91.264 -0.0589585  250.068 1.27669 90.3845 -0.00299651
576  249.795 1.327 88.2915 -0.0927367  249.918 1.33146 83.667 0.344075  249.451 1.30395 85.214 0.776025  249.835 1.33146 79.1517 -0.342415
584  249.909 1.28727 94.1574 0.445907  250.113 1.28189 89.4567 -0.357945  249.846 1.28404 100.903 0.167645  249.727 1.28666 96.7605 0.105692
592  249.442 1.3056 102.734 0.379813  250.131 1.28822 85.9417 -0.0690988  249.479 1.30537 103.507 0.323438  250.154 1.31332 89.5069 -0.287182
600  249.979 1.26986 97.4588 -0.11279  249.974 1.26883 92.5032 -0.358334  250.155 1.24593 96.296 -0.116726  250.212 1.25544 97.1789 -0.327414
608  0 1.44 60 0  0 1.44 60 0  0 1.44 60 0  0 1.44 60 0
616  250.005 1.29233 93.8803 -0.0544705  249.66 1.30154 104.519 0.981998  249.865 1.29308 97.6536 0.285354  249.663 1.2911 104.311 0.97344
624  250.122 1.27134 87.9431 0.150295  250.084 1.27381 92.2122 -0.357763  249.624 1.26645 103.846 0.00818299  250.155 1.28504 89.292 0.275305
632  250.233 1.23177 95.6711 -0.00191641  249.611 1.24624 123.903 0.0953002  249.891 1.23931 99.0689 -0.282653  249.996 1.25323 98.1978 -0.0466057
639  245.077 1.16015 117.93 -0.334221  250.028 1.19571 116.151 -0.102042  248.698 1.15821 117.283 -0.159483  249.659 1.16603 131.106 0.527431

File: testCcat
0  32 32 32 32 0  32 32 32 32
3  32 32 32 32 3  32 32 32 32
6  32 32 32 32 6  32 32 32 32
9  32 32 32 32 9  32 32 32 32
12  32 32 32 32 12  32 32 32 32
15  32 32 32 32 15  32 32 32 32
18  32 32 32 32 18  32 32 32 32
21  32 32 32 32 21  32 32 32 32
24  32 32 32 32 24  32 32 32 32
27  32 32 32 32 27  32 32 32 32
30  32 32 32 32 30  32 32 32 32
33  32 32 32 32 33  32 32 32 32
36  32 32 32 32 36  32 32 32 32
39  32 32 32 32 39  32 32 32 32
42  32 32 32 32 42  32 32 32 32
45  32 32 32 32 45  32 32 32 32
48  32 32 32 32 48  32 32 32 32
51  32 32 32 32 51  32 32 32 32
54  32 32 32 32 54  32 32 32 32
57  32 32 32 32 57  32 32 32 32
60  32 32 32 32 60  32 32 32 32
63  32 32 32 32 63  32 32 32 32
66  32 32 32 32 66  32 32 32 32
69  32 32 32 32 69  32 32 32 32
72  32 32 32 32 72  32 32 32 32
75  32 32 32 32 75  32 32 32 32
78  32 32 32 32 78  32 32 32 32
81  32 32 32 32 81  32 32 32 32
84  32 32 32 32 84  32 32 32 32
87  32 32 32 32 87  32 32 32 32
90  32 32 32 32 90  32 32 32 32
93  32 32 32 32 93  32 32 32 32
96  32 32 32 32 96  32 32 32 32
99  32 32 32 32 99  32 32 32 32
102  32 32 32 32 102  32 32 32 32
105  32 32 32 32 105  32 32 32 32
108  32 32 32 32 108  32 32 32 32
111  32 32 32 32 111  32 32 32 32
114  32 32 32 32 114  32 32 32 32
117  32 32 32 32 117  32 32 32 32
120  32 32 32 32 120  32 32 32 32
123  32 32 32 32 123  32 32 32 32
126  32 32 32 32 126  32 32 32 32
129  32 32 32 32 129  32 32 32 32
132  32 32 32 32 132  32 32 32 32
135  32 32 32 32 135  32 32 32 32
138  32 32 32 32 138  32 32 32 32
141  32 32 32 32 141  32 32 32 32
144  32 32 32 32 144  32 32 32 32
147  32 32 32 32 147  32 32 32 32
150  32 32 32 32 150  32 32 32 32
153  32 32 32 32 153  32 32 32 32
156  32 32 32 32 156  32 32 32 32
159  32 32 32 32 159  32 32 32 32
162  32 32 32 32 162  32 32 32 32
165  32 32 32 32 165  32 32 32 32
168  32 32 32 32 168  32 32 32 32
171  32 32 32 32 171  32 32 32 32
174  32 32 32 32 174  32 32 32 32
177  32 32 32 32 177  32 32 32 32
180  32 32 32 32 180  32 32 32 32
183  32 32 32 32 183  32 32 32 32
186  32 32 32 32 186  32 32 32 32
189  32 32 32 32 189  32 32 32 32
192  32 32 32 32 192  32 32 32 32
195  32 32 32 32 195  32 32 32 32
198  32 32 32 32 198  32 32 32 32
201  32 32 32 32 201  32 32 32 32
204  32 32 32 32 204  32 32 32 32
207  32 32 32 32 207  32 32 32 32
210  32 32 32 32 210  32 32 32 32
213  32 32 32 32 213  32 32 32 32
216  32 32 32 32 216  32 32 32 32
219  32 32 32 32 219  32 32 32 32
222  32 32 32 32 222  32 32 32 32
225  32 32 32 32 225  32 32 32 32
228  32 32 32 32 228  32 32 32 32
231  32 32 32 32 231  32 32 32 32
234  32 32 32 32 234  32 32 32 32
237  32 32 32 32 237  32 32 32 32
240  32 32 32 32 240  32 32 32 32
243  32 32 32 32 243  32 32 32 32
246  32 32 32 32 246  32 32 32 32
249  32 32 32 32 249  32 32 32 32
252  32 32 32 32 252  32 32 32 32
255  32 32 32 32 255  32 32 32 32
258  32 32 32 32 258  32 32 32 32
261  32 32 32 32 261  32 32 32 32
264  32 32 32 32 264  32 32 32 32
267  32 32 32 32 267  32 32 32 32
270  32 32 32 32 270  32 32 32 32
273  32 32 32 32 273  32 32 32 32
276  32 32 32 32 276  32 32 32 32
279  32 32 32 32 279  32 32 32 32
282  32 32 32 32 282  32 32 32 32
285  32 32 32 32 285  32 32 32 32
288  32 32 32 32 288  32 32 32 32
291  32 32 32 32 291  32 32 32 32
294  32 32 32 32 294  32 32 32 32
297  32 32 32 32 297  32 32 32 32
300  32 32 32 32 300  32 32 32 32
303  32 32 32 32 303  32 32 32 32
306  32 32 32 32 306  32 32 32 32
309  32 32 32 32 309  32 32 32 32
312  32 32 32 32 312  32 32 32 32
315  32 32 32 32 315  32 32 32 32
318  32 32 32 32 318  32 32 32 32
321  32 32 32 32 321  32 32 32 32
324  32 32 32 32 324  32 32 32 32
327  32 32 32 32 327  32 32 32 32
330  32 32 32 32 330  32 32 32 32
333  32 32 32 32 333  32 32 32 32
336  32 32 32 32 336  32 32 32 32
339  32 32 32 32 339  32 32 32 32
342  32 32 32 32 342  32 32 32 32
345  32 32 32 32 345  32 32 32 32
348  32 32 32 32 348  32 32 32 32
351  32 32 32 32 351  32 32 32 32
354  32 32 32 32 354  32 32 32 32
357  32 32 32 32 357  32 32 32 32
360  32 32 32 32 360  32 32 32 32
363  32 32 32 32 363  32 32 32 32
366  32 32 32 32 366  32 32 32 32
369  32 32 32 32 369  32 32 32 32
372  32 32 32 32 372  32 32 32 32
375  32 32 32 32 375  32 32 32 32
378  32 32 32 32 378  32 32 32 32
381  32 32 32 32 381  32 32 32 32
384  32 32 32 32 384  32 32 32 32
387  32 32 32 32 387  32 32 32 32
390  32 32 32 32 390  32 32 32 32
393  32 32 32 32 393  32 32 32 32
396  32 32 32 32 396  32 32 32 32
399  32 32 32 32 399  32 32 32 32
402  32 32 32 32 402  32 32 32 32
405  32 32 32 32 405  32 32 32 32
408  32 32 32 32 408  32 32 32 32
411  32 32 32 32 411  32 32 32 32
414  32 32 32 32 414  32 32 32 32
417  32 32 32 32 417  32 32 32 32
420  32 32 32 32 420  32 32 32 32
423  32 32 32 32 423  32 32 32 32
426  32 32 32 32 426  32 32 32 32
429  32 32 32 32 429  32 32 32 32
432  32 32 32 32 432  32 32 32 32
435  32 32 32 32 435  32 32 32 32
438  32 32 32 32 438  32 32 32 32
441  32 32 32 32 441  32 32 32 32
444  32 32 32 32 444  32 32 32 32
447  32 32 32 32 447  32 32 32 32
450  32 32 32 32 450  32 32 32 32
453  32 32 32 32 453  32 32 32 32
456  32 32 32 32 456  32 32 32 32
459  32 32 32 32 459  32 32 32 32
462  32 32 32 32 462  32 32 32 32
465  32 32 32 32 465  32 32 32 32
468  32 32 32 32 468  32 32 32 32
471  32 32 32 32 471  32 32 32 32
474  32 32 32 32 474  32 32 32 32
477  32 32 32 32 477  32 32 32 32
480  32 32 32 32 480  32 32 32 32
483  32 32 32 32 483  32 32 32 32
486  32 32 32 32 486  32 32 32 32
489  32 32 32 32 489  32 32 32 32
492  32 32 32 32 492  32 32 32 32
495  32 32 32 32 495  32 32 32 32
498  32 32 32 32 498  32 32 32 32
501  32 32 32 32 501  32 32 32 32
504  32 32 32 32 504  32 32 32 32
507  32 32 32 32 507  32 32 32 32
510  32 32 32 32 510  32 32 32 32
513  32 32 32 32 513  32 32 32 32
516  32 32 32 32 516  32 32 32 32
519  32 32 32 32 519  32 32 32 32
522  32 32 32 32 522  32 32 32 32
525  32 32 32 32 525  32 32 32 32
528  32 32 32 32 528  32 32 32 32
531  32 32 32 32 531  32 32 32 32
534  32 32 32 32 534  32 32 32 32
537  32 32 32 32 537  32 32 32 32
540  32 32 32 32 540  32 32 32 32
543  32 32 32 32 543  32 32 32 32
546  32 32 32 32 546  32 32 32 32
549  32 32 32 32 549  32 32 32 32
552  32 32 32 32 552  32 32 32 32
555  32 32 32 32 555  32 32 32 32
558  32 32 32 32 558  32 32 32 32
561  32 32 32 32 561  32 32 32 32
564  32 32 32 32 564  32 32 32 32
567  32 32 32 32 567  32 32 32 32
570  32 32 32 32 570  32 32 32 32
573  32 32 32 32 573  32 32 32 32
576  32 32 32 32 576  32 32 32 32
579  32 32 32 32 579  32 32 32 32
582  32 32 32 32 582  32 32 32 32
585  32 32 32 32 585  32 32 32 32
588  32 32 32 32 588  32 32 32 32
591  32 32 32 32 591  32 32 32 32
594  32 32 32 32 594  32 32 32 32
597  32 32 32 32 597  32 32 32 32
600  32 32 32 32 600  32 32 32 32
603  32 32 32 32 603  32 32 32 32
606  32 32 32 32 606  32 32 32 32
609  32 32 32 32 609  32 32 32 32
612  32 32 32 32 612  32 32 32 32
615  32 32 32 32 615  32 32 32 32
618  32 32 32 32 618  32 32 32 32
621  32 32 32 32 621  32 32 32 32
624  32 32 32 32 624  32 32 32 32
627  32 32 32 32 627  32 32 32 32
630  32 32 32 32 630  32 32 32 32
633  32 32 32 32 633  32 32 32 32
636  32 32 32 32 636  32 32 32 32
639  32 32 32 32 639  32 32 32 32